Folder: V44_Roentgenreflektometrie/data

Note: data/2 Concav.txt
# L (cm) P (mW)
62,2 7,8
75,7 7,6
81,7 7,8
93,8 7,3
102,0 5,3
111,5 3,9
123,1 4,1
136,8 4,8
145,2 4,4
156,1 7,0

Note: data/2 Plan.txt
# L (cm) P (mW)
61,9 3,3
62,4 3,4
71,4 3,0
84,7 3,3
91,0 3,5
96,2 4,1
100,2 3,3
105,4 1,72
115,2 0,201
114,4 0,34
115,9 0,126

Note: data/3TEM00.txt
# x (mm) I (nA)
-15 0.992
-13 16.232
-11 1.675
-9 300.14
-7 1087.95
-5 2857.50
-3 5157.90
-1 7480.70
1 8569.50
3 8139.6
5 6593.0
7 4729.4
9 2974.5
11 1634.9
13 776.3
15 278.5
17 83.919
19 29.205
21 19.557
23 7.659

Note: data/3TEM01.txt
#x(mm) I(nA)
-20 2.170
-18 2.487
-16 32.214
-14 70.324
-12 188.967
-10 567.0
-8 1057.6
-6 1339.5
-4 1156.4
-2 667.5
0 60.3
2 28.19
4 1225.6
6 1798.8
8 2164.9
10 1927.3
12 1150.5
14 509.2
16 204.3
18 69
20 12.9
23 6.7

Note: data/4.txt
#alpha(°) P(µW)
0   13.3
10  192
20  630
30  1260
40  2000
50  2800
60  3400
70  3900
80  4200
90  4300
100 4100
110 3800
120 3200
130 2580
140 1810
150 1030
160 450
170 100
180 10.5
190 26
200 80
210 164
220 270
230 360
240 460
250 550
260 600
270 600
280 580
290 530
300 450
310 340
320 237
330 141
340 65
350 15.4

Note: data/5.txt
#L(cm) nu1(Mhz) nu2(Mhz) nu3(Mhz) nu4(Mhz) nu5(Mhz)
156.1 289 383 484 573 674
134.1 114 226 334 450 558
111.2 136 271 409 540 678
83.0  185 364 543 723 902
72.0  208 414 621 832 -1

Note: data/6100.txt
# k delta x(cm)
1 4.8
2 9.1
3 13.5
4 18.3
5 23.3
6 28.7

Note: data/6600.txt
#k delta x(cm)
1 29.4

File: Scan_1_Detector.UXD
; C:\DIFFDAT1\Praktikum\Ogasa Ruan\Scan_1_Detector.raw(Diffrac Plus V1.01 file) converted by XCH V1.0
_FILEVERSION=2
_SITE='Deutschland'
_USER='Administrator'
_GONIOMETER_CODE=4885
; D8 Theta/Theta; Special
_SAMPLE_CHANGER_CODE=0
_ATTACHMENTS_CODE=0
_GONIOMETER_RADIUS=350
_FIXED_DIVSLIT=0.600000
_FIXED_SAMPLESLIT=0.000000
_FIXED_DETSLIT=11.66
_MONOCHROMATOR=0
; None
_THIN_FILM='N'
_BETA_FILTER='Y'
_FIXED_ANTISLIT=8.340000
_ANALYZER_CODE=0
; None
_DATEMEASURED='19-Jun-2023 10:04:03'
_WL_UNIT='A'
_WL1=1.540600
_WL2=1.544390
_WL3=1.392220
_WLRATIO=0.500000
_ANODE='Cu'
; (Data for Range number 1)
_DRIVE='2THETA'
_STEPTIME=1.000000
_STEPSIZE=0.005000
_STEPMODE='S'
_START=-0.500000
_THETA=0.000000
_2THETA=-0.500000
_KHI=0.000000
_PHI=90
_X=0.500000
_Y=-0.650000
_Z=-15
_DIVERGENCE=0.000000
_ANTISCATTER=0.000000
_DETECTOR=5
_DETECTORSLIT='unkn'
_AUX1=0.000000
_AUX2=0.000000
_AUX3=0.000000
_TIMESTARTED=2.000000
_TEMP_RATE=-1.000000
_TEMP_DELAY=-1.000000
_KV=40
_MA=35
_RANGE_WL=1.540600
_3DPLANE=0
_GONIOMETER=-0.500000
_PSDCHANNEL0=0
_2THETACOUNTS
  -0.5000         1
  -0.4950         0
  -0.4900         1
  -0.4850         1
  -0.4800         0
  -0.4750         1
  -0.4700         0
  -0.4650         2
  -0.4600         0
  -0.4550         1
  -0.4500         1
  -0.4450         1
  -0.4400         0
  -0.4350         1
  -0.4300         3
  -0.4250         1
  -0.4200         2
  -0.4150         7
  -0.4100        17
  -0.4050        20
  -0.4000        29
  -0.3950        33
  -0.3900        32
  -0.3850        37
  -0.3800        52
  -0.3750        57
  -0.3700        53
  -0.3650        66
  -0.3600        86
  -0.3550        96
  -0.3500       125
  -0.3450       139
  -0.3400       142
  -0.3350       199
  -0.3300       233
  -0.3250       284
  -0.3200       326
  -0.3150       392
  -0.3100       387
  -0.3050       493
  -0.3000       620
  -0.2950       693
  -0.2900       795
  -0.2850       986
  -0.2800      1066
  -0.2750      1237
  -0.2700      1417
  -0.2650      1571
  -0.2600      1866
  -0.2550      2009
  -0.2500      2250
  -0.2450      2528
  -0.2400      2723
  -0.2350      3178
  -0.2300      3380
  -0.2250      3942
  -0.2200      4289
  -0.2150      4760
  -0.2100      5207
  -0.2050      6003
  -0.2000      6844
  -0.1950      7554
  -0.1900      8442
  -0.1850      9302
  -0.1800     10611
  -0.1750     11695
  -0.1700     13180
  -0.1650     14922
  -0.1600     16673
  -0.1550     18520
  -0.1500     20907
  -0.1450     24630
  -0.1400     28879
  -0.1350     33567
  -0.1300     38674
  -0.1250     46283
  -0.1200     54950
  -0.1150     67102
  -0.1100     82127
  -0.1050    103485
  -0.1000    133978
  -0.0950    174168
  -0.0900    238098
  -0.0850    272163
  -0.0800    322099
  -0.0750    376941
  -0.0700    430171
  -0.0650    491412
  -0.0600    555441
  -0.0550    628090
  -0.0500    702729
  -0.0450    780093
  -0.0400    840212
  -0.0350    875367
  -0.0300    885985
  -0.0250    913019
  -0.0200    932445
  -0.0150    931560
  -0.0100    925517
  -0.0050    913208
   0.0000    908887
   0.0050    906043
   0.0100    887549
   0.0150    856565
   0.0200    820470
   0.0250    787488
   0.0300    747024
   0.0350    708243
   0.0400    663608
   0.0450    600487
   0.0500    527436
   0.0550    455561
   0.0600    386429
   0.0650    312374
   0.0700    255668
   0.0750    205487
   0.0800    160860
   0.0850    128778
   0.0900    115323
   0.0950     94279
   0.1000     76499
   0.1050     63505
   0.1100     53189
   0.1150     43525
   0.1200     34642
   0.1250     28189
   0.1300     23446
   0.1350     19893
   0.1400     16692
   0.1450     14780
   0.1500     13805
   0.1550     13076
   0.1600     12478
   0.1650     10879
   0.1700      8755
   0.1750      6662
   0.1800      5429
   0.1850      4660
   0.1900      4230
   0.1950      3382
   0.2000      2447
   0.2050      1546
   0.2100      1032
   0.2150       712
   0.2200       557
   0.2250       431
   0.2300       305
   0.2350       236
   0.2400       181
   0.2450       116
   0.2500        81
   0.2550        82
   0.2600        89
   0.2650        54
   0.2700        60
   0.2750        69
   0.2800        50
   0.2850        47
   0.2900        39
   0.2950        39
   0.3000        21
   0.3050        22
   0.3100        15
   0.3150        15
   0.3200        17
   0.3250        13
   0.3300        14
   0.3350        13
   0.3400         6
   0.3450         8
   0.3500         4
   0.3550         2
   0.3600         6
   0.3650         2
   0.3700         4
   0.3750         3
   0.3800         3
   0.3850         2
   0.3900         0
   0.3950         2
   0.4000         3
   0.4050         3
   0.4100         2
   0.4150         3
   0.4200         0
   0.4250         0
   0.4300         2
   0.4350         0
   0.4400         3
   0.4450         2
   0.4500         3
   0.4550         0
   0.4600         1
   0.4650         0
   0.4700         2
   0.4750         1
   0.4800         1
   0.4850         2
   0.4900         1
   0.4950         1
   0.5000         1

File: Scan_2_Z.UXD
; C:\DIFFDAT1\Praktikum\Ogasa Ruan\Scan_2_Z.raw(Diffrac Plus V1.01 file) converted by XCH V1.0
_FILEVERSION=2
_SITE='Deutschland'
_USER='Administrator'
_GONIOMETER_CODE=4885
; D8 Theta/Theta; Special
_SAMPLE_CHANGER_CODE=0
_ATTACHMENTS_CODE=0
_GONIOMETER_RADIUS=350
_FIXED_DIVSLIT=0.600000
_FIXED_SAMPLESLIT=0.000000
_FIXED_DETSLIT=11.66
_MONOCHROMATOR=0
; None
_THIN_FILM='N'
_BETA_FILTER='Y'
_FIXED_ANTISLIT=8.340000
_ANALYZER_CODE=0
; None
_DATEMEASURED='19-Jun-2023 10:29:51'
_WL_UNIT='A'
_WL1=1.540600
_WL2=1.544390
_WL3=1.392220
_WLRATIO=0.500000
_ANODE='Cu'
; (Data for Range number 1)
_DRIVE='Z'
_STEPTIME=1.000000
_STEPSIZE=0.010000
_STEPMODE='C'
_START=-1.000000
_THETA=0.000000
_2THETA=0.000000
_KHI=0.000000
_PHI=90
_X=0.000000
_Y=-0.650000
_Z=-1.000000
_DIVERGENCE=0.000000
_ANTISCATTER=0.000000
_DETECTOR=5
_DETECTORSLIT='unkn'
_AUX1=0.000000
_AUX2=0.000000
_AUX3=0.000000
_TIMESTARTED=4.000000
_TEMP_RATE=-1.000000
_TEMP_DELAY=-1.000000
_KV=40
_MA=35
_RANGE_WL=1.540600
_3DPLANE=0
_GONIOMETER=0.000000
_PSDCHANNEL0=0
_2THETACOUNTS
  -1.0000    914283
  -0.9900    916171
  -0.9800    917553
  -0.9700    918754
  -0.9600    920800
  -0.9500    922278
  -0.9400    918478
  -0.9300    918509
  -0.9200    916416
  -0.9100    912616
  -0.9000    915815
  -0.8900    914670
  -0.8800    917814
  -0.8700    915997
  -0.8600    916124
  -0.8500    916882
  -0.8400    911984
  -0.8300    920571
  -0.8200    917411
  -0.8100    916969
  -0.8000    921891
  -0.7900    916906
  -0.7800    914117
  -0.7700    921401
  -0.7600    920437
  -0.7500    919449
  -0.7400    917174
  -0.7300    911336
  -0.7200    918904
  -0.7100    919560
  -0.7000    918264
  -0.6900    917617
  -0.6800    915571
  -0.6700    917151
  -0.6600    918636
  -0.6500    914923
  -0.6400    911881
  -0.6300    911873
  -0.6200    915966
  -0.6100    913588
  -0.6000    917901
  -0.5900    914875
  -0.5800    916677
  -0.5700    914291
  -0.5600    923431
  -0.5500    920382
  -0.5400    912813
  -0.5300    918699
  -0.5200    915989
  -0.5100    916526
  -0.5000    918083
  -0.4900    911273
  -0.4800    917538
  -0.4700    916629
  -0.4600    916763
  -0.4500    917719
  -0.4400    911605
  -0.4300    916582
  -0.4200    916210
  -0.4100    914267
  -0.4000    910546
  -0.3900    920232
  -0.3800    923083
  -0.3700    920627
  -0.3600    914741
  -0.3500    918786
  -0.3400    916629
  -0.3300    915397
  -0.3200    914662
  -0.3100    921180
  -0.3000    919773
  -0.2900    916440
  -0.2800    917459
  -0.2700    916155
  -0.2600    914575
  -0.2500    919710
  -0.2400    916842
  -0.2300    917664
  -0.2200    914409
  -0.2100    922088
  -0.2000    914378
  -0.1900    908555
  -0.1800    906343
  -0.1700    899360
  -0.1600    888276
  -0.1500    881529
  -0.1400    873511
  -0.1300    866109
  -0.1200    852592
  -0.1100    841721
  -0.1000    827904
  -0.0900    813447
  -0.0800    795656
  -0.0700    778047
  -0.0600    763203
  -0.0500    735411
  -0.0400    713868
  -0.0300    685104
  -0.0200    656474
  -0.0100    627513
   0.0000    594064
   0.0100    564194
   0.0200    531725
   0.0300    499241
   0.0400    466424
   0.0500    431506
   0.0600    403477
   0.0700    373220
   0.0800    344211
   0.0900    319847
   0.1000    293959
   0.1100    272439
   0.1200    248021
   0.1300    230925
   0.1400    210859
   0.1500    190232
   0.1600    168957
   0.1700    150685
   0.1800    136685
   0.1900    120993
   0.2000    104584
   0.2100     90312
   0.2200     76479
   0.2300     65068
   0.2400     54805
   0.2500     46149
   0.2600     38307
   0.2700     31695
   0.2800     24958
   0.2900     20180
   0.3000     16202
   0.3100     12973
   0.3200     10213
   0.3300      8056
   0.3400      6049
   0.3500      4460
   0.3600      3151
   0.3700      2199
   0.3800      1535
   0.3900       902
   0.4000       442
   0.4100       181
   0.4200        29
   0.4300         1
   0.4400         0
   0.4500         1
   0.4600         0
   0.4700         0
   0.4800         0
   0.4900         0
   0.5000         0
   0.5100         0
   0.5200         0
   0.5300         0
   0.5400         0
   0.5500         0
   0.5600         0
   0.5700         0
   0.5800         0
   0.5900         0
   0.6000         0
   0.6100         0
   0.6200         0
   0.6300         0
   0.6400         0
   0.6500         0
   0.6600         0
   0.6700         0
   0.6800         0
   0.6900         0
   0.7000         0
   0.7100         0
   0.7200         0
   0.7300         0
   0.7400         0
   0.7500         0
   0.7600         0
   0.7700         0
   0.7800         0
   0.7900         0
   0.8000         0
   0.8100         0
   0.8200         0
   0.8300         0
   0.8400         0
   0.8500         0
   0.8600         0
   0.8700         0
   0.8800         0
   0.8900         0
   0.9000         0
   0.9100         0
   0.9200         0
   0.9300         0
   0.9400         0
   0.9500         0
   0.9600         0
   0.9700         0
   0.9800         0
   0.9900         0
   1.0000         0

File: Scan_3_Rocking.UXD
; C:\DIFFDAT1\Praktikum\Ogasa Ruan\Scan_3_Rocking.raw(Diffrac Plus V1.01 file) converted by XCH V1.0
_FILEVERSION=2
_SITE='Deutschland'
_USER='Administrator'
_GONIOMETER_CODE=4885
; D8 Theta/Theta; Special
_SAMPLE_CHANGER_CODE=0
_ATTACHMENTS_CODE=0
_GONIOMETER_RADIUS=350
_FIXED_DIVSLIT=0.600000
_FIXED_SAMPLESLIT=0.000000
_FIXED_DETSLIT=11.66
_MONOCHROMATOR=0
; None
_THIN_FILM='N'
_BETA_FILTER='Y'
_FIXED_ANTISLIT=8.340000
_ANALYZER_CODE=0
; None
_DATEMEASURED='19-Jun-2023 11:16:57'
_WL_UNIT='A'
_WL1=1.540600
_WL2=1.544390
_WL3=1.392220
_WLRATIO=0.500000
_ANODE='Cu'
; (Data for Range number 1)
_DRIVE='THETA'
_STEPTIME=0.999980
_STEPSIZE=0.020000
_STEPMODE='C'
_START=-2.500000
_THETA=-2.500000
_2THETA=0.000000
_KHI=0.000000
_PHI=90
_X=0.000000
_Y=0.900000
_Z=0.040000
_DIVERGENCE=0.000000
_ANTISCATTER=0.000000
_DETECTOR=5
_DETECTORSLIT='unkn'
_AUX1=0.000000
_AUX2=0.000000
_AUX3=0.000000
_TIMESTARTED=4.000000
_TEMP_RATE=-1.000000
_TEMP_DELAY=-1.000000
_KV=40
_MA=35
_RANGE_WL=1.540600
_3DPLANE=0
_GONIOMETER=-0.000500
_PSDCHANNEL0=0
_2THETACOUNTS
  -2.5000         0
  -2.4800         0
  -2.4600         0
  -2.4400         0
  -2.4200         0
  -2.4000         0
  -2.3800         0
  -2.3600         0
  -2.3400         0
  -2.3200         0
  -2.3000         0
  -2.2800         1
  -2.2600         0
  -2.2400        66
  -2.2200       295
  -2.2000       596
  -2.1800      1031
  -2.1600      1605
  -2.1400      2429
  -2.1200      3328
  -2.1000      4669
  -2.0800      6330
  -2.0600      8241
  -2.0400     10637
  -2.0200     13467
  -2.0000     16579
  -1.9800     20929
  -1.9600     25793
  -1.9400     29008
  -1.9200     31966
  -1.9000     34345
  -1.8800     36709
  -1.8600     39673
  -1.8400     42210
  -1.8200     45080
  -1.8000     48097
  -1.7800     51480
  -1.7600     54151
  -1.7400     57316
  -1.7200     61089
  -1.7000     65063
  -1.6800     68861
  -1.6600     73056
  -1.6400     77277
  -1.6200     81459
  -1.6000     86363
  -1.5800     90275
  -1.5600     95269
  -1.5400     99861
  -1.5200    105263
  -1.5000    110518
  -1.4800    116517
  -1.4600    122529
  -1.4400    128891
  -1.4200    135571
  -1.4000    142220
  -1.3800    149038
  -1.3600    156841
  -1.3400    163009
  -1.3200    170600
  -1.3000    175906
  -1.2800    183141
  -1.2600    189671
  -1.2400    196238
  -1.2200    203575
  -1.2000    205045
  -1.1800    211341
  -1.1600    218206
  -1.1400    225632
  -1.1200    230759
  -1.1000    237348
  -1.0800    247626
  -1.0600    252215
  -1.0400    259997
  -1.0200    264705
  -1.0000    273064
  -0.9800    281066
  -0.9600    289274
  -0.9400    294054
  -0.9200    304387
  -0.9000    311552
  -0.8800    321720
  -0.8600    330931
  -0.8400    341612
  -0.8200    350025
  -0.8000    361662
  -0.7800    366623
  -0.7600    379745
  -0.7400    390339
  -0.7200    397978
  -0.7000    408343
  -0.6800    416599
  -0.6600    431751
  -0.6400    444099
  -0.6200    452915
  -0.6000    464370
  -0.5800    476030
  -0.5600    490874
  -0.5400    496689
  -0.5200    514314
  -0.5000    523723
  -0.4800    529995
  -0.4600    544618
  -0.4400    554754
  -0.4200    569693
  -0.4000    581250
  -0.3800    595976
  -0.3600    604279
  -0.3400    618246
  -0.3200    629022
  -0.3000    639213
  -0.2800    645991
  -0.2600    663600
  -0.2400    669359
  -0.2200    677472
  -0.2000    688098
  -0.1800    695935
  -0.1600    708938
  -0.1400    712738
  -0.1200    720520
  -0.1000    732196
  -0.0800    738998
  -0.0600    745349
  -0.0400    749797
  -0.0200    761979
   0.0000    771751
   0.0200    767833
   0.0400    760154
   0.0600    754837
   0.0800    742884
   0.1000    742331
   0.1200    731398
   0.1400    721460
   0.1600    717928
   0.1800    705754
   0.2000    696464
   0.2200    688864
   0.2400    681209
   0.2600    678428
   0.2800    664524
   0.3000    655969
   0.3200    644111
   0.3400    632498
   0.3600    624985
   0.3800    612534
   0.4000    604397
   0.4200    592713
   0.4400    577838
   0.4600    566130
   0.4800    556903
   0.5000    542951
   0.5200    535897
   0.5400    518548
   0.5600    510340
   0.5800    498672
   0.6000    485795
   0.6200    475849
   0.6400    465705
   0.6600    454369
   0.6800    445252
   0.7000    431561
   0.7200    419569
   0.7400    412388
   0.7600    402157
   0.7800    393049
   0.8000    382076
   0.8200    372035
   0.8400    363748
   0.8600    353328
   0.8800    343579
   0.9000    336674
   0.9200    325575
   0.9400    315937
   0.9600    309056
   0.9800    301053
   1.0000    293137
   1.0200    285143
   1.0400    275078
   1.0600    265559
   1.0800    262470
   1.1000    252215
   1.1200    245919
   1.1400    237845
   1.1600    228958
   1.1800    222464
   1.2000    216642
   1.2200    208284
   1.2400    202951
   1.2600    197484
   1.2800    188478
   1.3000    180539
   1.3200    176668
   1.3400    167156
   1.3600    162203
   1.3800    154058
   1.4000    156142
   1.4200    147775
   1.4400    140481
   1.4600    134411
   1.4800    127738
   1.5000    121551
   1.5200    116173
   1.5400    110619
   1.5600    104709
   1.5800    100044
   1.6000     95214
   1.6200     89923
   1.6400     86173
   1.6600     81299
   1.6800     76948
   1.7000     72742
   1.7200     68684
   1.7400     64943
   1.7600     61154
   1.7800     57749
   1.8000     54533
   1.8200     51532
   1.8400     48531
   1.8600     45548
   1.8800     42630
   1.9000     39764
   1.9200     37148
   1.9400     34566
   1.9600     32076
   1.9800     29929
   2.0000     27708
   2.0200     25639
   2.0400     21429
   2.0600     16789
   2.0800     12864
   2.1000      9752
   2.1200      7423
   2.1400      5416
   2.1600      3782
   2.1800      2805
   2.2000      1830
   2.2200      1055
   2.2400       526
   2.2600       189
   2.2800        32
   2.3000         1
   2.3200         0
   2.3400         0
   2.3600         0
   2.3800         0
   2.4000         0
   2.4200         0
   2.4400         0
   2.4600         0
   2.4800         0
   2.5000         0

File: Scan_4_Z.UXD
; C:\DIFFDAT1\Praktikum\Ogasa Ruan\Scan_4_Z.raw(Diffrac Plus V1.01 file) converted by XCH V1.0
_FILEVERSION=2
_SITE='Deutschland'
_USER='Administrator'
_GONIOMETER_CODE=4885
; D8 Theta/Theta; Special
_SAMPLE_CHANGER_CODE=0
_ATTACHMENTS_CODE=0
_GONIOMETER_RADIUS=350
_FIXED_DIVSLIT=0.600000
_FIXED_SAMPLESLIT=0.000000
_FIXED_DETSLIT=11.66
_MONOCHROMATOR=0
; None
_THIN_FILM='N'
_BETA_FILTER='Y'
_FIXED_ANTISLIT=8.340000
_ANALYZER_CODE=0
; None
_DATEMEASURED='19-Jun-2023 11:27:01'
_WL_UNIT='A'
_WL1=1.540600
_WL2=1.544390
_WL3=1.392220
_WLRATIO=0.500000
_ANODE='Cu'
; (Data for Range number 1)
_DRIVE='Z'
_STEPTIME=1.000000
_STEPSIZE=0.010000
_STEPMODE='C'
_START=-1.000000
_THETA=0.000000
_2THETA=0.000000
_KHI=0.000000
_PHI=90
_X=0.000000
_Y=0.900000
_Z=-1.000000
_DIVERGENCE=0.000000
_ANTISCATTER=0.000000
_DETECTOR=5
_DETECTORSLIT='unkn'
_AUX1=0.000000
_AUX2=0.000000
_AUX3=0.000000
_TIMESTARTED=3.000000
_TEMP_RATE=-1.000000
_TEMP_DELAY=-1.000000
_KV=40
_MA=35
_RANGE_WL=1.540600
_3DPLANE=0
_GONIOMETER=0.000000
_PSDCHANNEL0=0
_2THETACOUNTS
  -1.0000    895710
  -0.9900    897788
  -0.9800    892329
  -0.9700    895789
  -0.9600    896081
  -0.9500    895046
  -0.9400    896081
  -0.9300    896042
  -0.9200    892273
  -0.9100    893308
  -0.9000    894209
  -0.8900    893680
  -0.8800    894770
  -0.8700    895497
  -0.8600    898759
  -0.8500    896144
  -0.8400    890591
  -0.8300    897890
  -0.8200    894730
  -0.8100    891357
  -0.8000    890986
  -0.7900    900087
  -0.7800    893774
  -0.7700    893048
  -0.7600    894533
  -0.7500    896855
  -0.7400    891310
  -0.7300    896776
  -0.7200    897993
  -0.7100    895299
  -0.7000    894517
  -0.6900    895765
  -0.6800    892424
  -0.6700    895299
  -0.6600    894549
  -0.6500    895986
  -0.6400    891626
  -0.6300    897314
  -0.6200    896318
  -0.6100    893925
  -0.6000    896334
  -0.5900    897448
  -0.5800    895441
  -0.5700    891096
  -0.5600    894691
  -0.5500    893901
  -0.5400    892408
  -0.5300    898886
  -0.5200    890978
  -0.5100    897487
  -0.5000    893403
  -0.4900    892005
  -0.4800    899810
  -0.4700    889888
  -0.4600    894470
  -0.4500    892147
  -0.4400    890046
  -0.4300    897440
  -0.4200    893395
  -0.4100    899020
  -0.4000    893948
  -0.3900    894683
  -0.3800    896050
  -0.3700    893111
  -0.3600    896042
  -0.3500    893640
  -0.3400    891942
  -0.3300    896895
  -0.3200    895836
  -0.3100    895631
  -0.3000    896911
  -0.2900    892131
  -0.2800    894106
  -0.2700    895876
  -0.2600    896460
  -0.2500    893877
  -0.2400    897519
  -0.2300    893427
  -0.2200    893498
  -0.2100    897401
  -0.2000    891231
  -0.1900    893980
  -0.1800    892826
  -0.1700    896476
  -0.1600    896160
  -0.1500    898096
  -0.1400    898483
  -0.1300    901185
  -0.1200    900561
  -0.1100    899502
  -0.1000    901366
  -0.0900    901959
  -0.0800    897250
  -0.0700    898443
  -0.0600    900450
  -0.0500    895394
  -0.0400    886759
  -0.0300    880186
  -0.0200    870548
  -0.0100    865808
   0.0000    855728
   0.0100    841571
   0.0200    828821
   0.0300    812728
   0.0400    800041
   0.0500    780323
   0.0600    760517
   0.0700    739124
   0.0800    710637
   0.0900    689370
   0.1000    659231
   0.1100    627718
   0.1200    591157
   0.1300    561327
   0.1400    522103
   0.1500    491206
   0.1600    454392
   0.1700    423132
   0.1800    391737
   0.1900    361899
   0.2000    334186
   0.2100    308076
   0.2200    286075
   0.2300    261522
   0.2400    241408
   0.2500    218072
   0.2600    197603
   0.2700    174558
   0.2800    156736
   0.2900    141642
   0.3000    123534
   0.3100    106696
   0.3200     90901
   0.3300     76362
   0.3400     64437
   0.3500     53954
   0.3600     44072
   0.3700     36360
   0.3800     28708
   0.3900     23309
   0.4000     17933
   0.4100     14182
   0.4200     11084
   0.4300      8540
   0.4400      6416
   0.4500      4693
   0.4600      3268
   0.4700      2270
   0.4800      1502
   0.4900       933
   0.5000       572
   0.5100       351
   0.5200       307
   0.5300       388
   0.5400       580
   0.5500       710
   0.5600      1039
   0.5700      1444
   0.5800      1904
   0.5900      2403
   0.6000      2925
   0.6100      3535
   0.6200      3933
   0.6300      4536
   0.6400      5056
   0.6500      6021
   0.6600      6445
   0.6700      7298
   0.6800      8420
   0.6900     10138
   0.7000     12219
   0.7100     14789
   0.7200     17739
   0.7300     21068
   0.7400     24543
   0.7500     28331
   0.7600     32524
   0.7700     36639
   0.7800     40835
   0.7900     44401
   0.8000     47673
   0.8100     50143
   0.8200     51122
   0.8300     51147
   0.8400     50158
   0.8500     47165
   0.8600     45813
   0.8700     44421
   0.8800     41756
   0.8900     38678
   0.9000     35133
   0.9100     32511
   0.9200     28992
   0.9300     25986
   0.9400     22669
   0.9500     19470
   0.9600     16315
   0.9700     13268
   0.9800     10789
   0.9900      8207
   1.0000      6982

File: Scan_5_Rocking.UXD
; C:\DIFFDAT1\Praktikum\Ogasa Ruan\Scan_5_Rocking.raw(Diffrac Plus V1.01 file) converted by XCH V1.0
_FILEVERSION=2
_SITE='Deutschland'
_USER='Administrator'
_GONIOMETER_CODE=4885
; D8 Theta/Theta; Special
_SAMPLE_CHANGER_CODE=0
_ATTACHMENTS_CODE=0
_GONIOMETER_RADIUS=350
_FIXED_DIVSLIT=0.600000
_FIXED_SAMPLESLIT=0.000000
_FIXED_DETSLIT=11.66
_MONOCHROMATOR=0
; None
_THIN_FILM='N'
_BETA_FILTER='Y'
_FIXED_ANTISLIT=8.340000
_ANALYZER_CODE=0
; None
_DATEMEASURED='19-Jun-2023 12:01:11'
_WL_UNIT='A'
_WL1=1.540600
_WL2=1.544390
_WL3=1.392220
_WLRATIO=0.500000
_ANODE='Cu'
; (Data for Range number 1)
_DRIVE='THETA'
_STEPTIME=0.999980
_STEPSIZE=0.005000
_STEPMODE='C'
_START=0.000000
_THETA=0.000000
_2THETA=0.300000
_KHI=0.000000
_PHI=90
_X=0.000000
_Y=1.300000
_Z=0.161000
_DIVERGENCE=0.000000
_ANTISCATTER=0.000000
_DETECTOR=5
_DETECTORSLIT='unkn'
_AUX1=0.000000
_AUX2=0.000000
_AUX3=0.000000
_TIMESTARTED=3.000000
_TEMP_RATE=-1.000000
_TEMP_DELAY=-1.000000
_KV=40
_MA=35
_RANGE_WL=1.540600
_3DPLANE=0
_GONIOMETER=0.299600
_PSDCHANNEL0=0
_2THETACOUNTS
   0.0000        57
   0.0050        54
   0.0100        65
   0.0150        59
   0.0200        79
   0.0250        98
   0.0300       117
   0.0350       141
   0.0400       170
   0.0450       265
   0.0500       402
   0.0550       525
   0.0600       763
   0.0650      1041
   0.0700      1355
   0.0750      1986
   0.0800      2789
   0.0850      3936
   0.0900      5298
   0.0950      6852
   0.1000      8772
   0.1050     11539
   0.1100     16251
   0.1150     21324
   0.1200     27575
   0.1250     37003
   0.1300     53546
   0.1350     78675
   0.1400     96380
   0.1450    114590
   0.1500    135750
   0.1550    127046
   0.1600     93539
   0.1650     57083
   0.1700     35108
   0.1750     24790
   0.1800     20147
   0.1850     17398
   0.1900     12846
   0.1950      9673
   0.2000      6355
   0.2050      4025
   0.2100      2991
   0.2150      2254
   0.2200      1640
   0.2250      1257
   0.2300      1026
   0.2350       846
   0.2400       677
   0.2450       594
   0.2500       505
   0.2550       355
   0.2600       324
   0.2650       231
   0.2700       144
   0.2750       120
   0.2800        90
   0.2850        76
   0.2900        63
   0.2950        46
   0.3000        43